condsFile,readyMSG,jitter,condition,stimuli_left,stimuli_right,target,correct_answer,blocks.thisRepN,blocks.thisTrialN,blocks.thisN,blocks.thisIndex,trials.thisRepN,trials.thisTrialN,trials.thisN,trials.thisIndex,textbox.started,left_stimuli.started,right_stimuli.started,target_stim.started,key_resp.started,left_stimuli.stopped,right_stimuli.stopped,target_stim.stopped,key_resp.stopped,key_resp.keys,key_resp.corr,key_resp.rt,fix_cross.started,fix_cross.stopped,textbox.stopped,session,participant,group,date,expName,psychopyVersion,frameRate,
shapes.xlsx,Comparez les formes,3,shapes,circle.png,vertical.png,circle.png,1,0,0,0,0,0,0,0,4,11.16300620800007,13.621906041000102,13.621906041000102,13.621906041000102,13.621906041000102,17.701558541000168,17.701558541000168,17.701558541000168,17.701558541000168,None,0,,,,,001,,C,2023-04-12_10h33.15.545,blockedTrials,2022.2.5,None,
shapes.xlsx,Comparez les formes,3,shapes,orizontal.png,vertical.png,orizontal.png,1,0,0,0,0,0,1,1,10,,18.120185625000204,18.120185625000204,18.120185625000204,18.120185625000204,22.207228416000135,22.207228416000135,22.207228416000135,22.207228416000135,None,0,,,,,001,,C,2023-04-12_10h33.15.545,blockedTrials,2022.2.5,None,
shapes.xlsx,Comparez les formes,3,shapes,orizontal.png,vertical.png,vertical.png,2,0,0,0,0,0,2,2,11,,22.61997737500019,22.61997737500019,22.61997737500019,22.61997737500019,26.704771583000138,26.704771583000138,26.704771583000138,26.704771583000138,None,0,,,,,001,,C,2023-04-12_10h33.15.545,blockedTrials,2022.2.5,None,
shapes.xlsx,Comparez les formes,3,shapes,vertical.png,circle.png,vertical.png,1,0,0,0,0,0,3,3,2,,27.12007408300019,27.12007408300019,27.12007408300019,27.12007408300019,31.212617791000184,31.212617791000184,31.212617791000184,31.212617791000184,left,0,2.2219241669999974,,,,001,,C,2023-04-12_10h33.15.545,blockedTrials,2022.2.5,None,
shapes.xlsx,Comparez les formes,3,shapes,orizontal.png,circle.png,circle.png,2,0,0,0,0,0,4,4,9,,31.621756457999936,31.621756457999936,31.621756457999936,31.621756457999936,35.70304575000023,35.70304575000023,35.70304575000023,35.70304575000023,right,0,1.2300171670001419,,,,001,,C,2023-04-12_10h33.15.545,blockedTrials,2022.2.5,None,
shapes.xlsx,Comparez les formes,3,shapes,vertical.png,circle.png,circle.png,2,0,0,0,0,0,5,5,3,,36.120228416000145,36.120228416000145,36.120228416000145,36.120228416000145,40.11562370800016,40.11562370800016,40.11562370800016,40.11562370800016,right,0,3.682805000000144,,,,001,,C,2023-04-12_10h33.15.545,blockedTrials,2022.2.5,None,
Surprised.xlsx,Comparez les visages,6,Surprised,F32SU.png,F22SU.png,F32SU.png,1,0,1,1,1,0,0,0,5,43.143615958000055,45.605075540999906,45.605075540999906,45.605075540999906,45.605075540999906,49.63933408300022,49.63933408300022,49.63933408300022,49.63933408300022,left,0,3.356729542000039,40.124054749999914,43.143615958000055,,001,,C,2023-04-12_10h33.15.545,blockedTrials,2022.2.5,None,
Surprised.xlsx,Comparez les visages,6,Surprised,F13SU.png,F24SU.png,F24SU.png,2,0,1,1,1,0,1,1,2,,50.11545587500018,50.11545587500018,50.11545587500018,50.11545587500018,54.150375833000226,54.150375833000226,54.150375833000226,54.150375833000226,right,0,1.938107374999845,,,,001,,C,2023-04-12_10h33.15.545,blockedTrials,2022.2.5,None,
Surprised.xlsx,Comparez les visages,6,Surprised,F01SU.png,F35SU.png,F35SU.png,2,0,1,1,1,0,2,2,4,,54.60474295800009,54.60474295800009,54.60474295800009,54.60474295800009,58.63873699999999,58.63873699999999,58.63873699999999,58.63873699999999,right,0,1.5321195419999185,,,,001,,C,2023-04-12_10h33.15.545,blockedTrials,2022.2.5,None,
Surprised.xlsx,Comparez les visages,6,Surprised,M01SU.png,M16SU.png,M16SU.png,2,0,1,1,1,0,3,3,3,,59.115514833000134,59.115514833000134,59.115514833000134,59.115514833000134,63.149327416000006,63.149327416000006,63.149327416000006,63.149327416000006,right,0,3.7942181250002704,,,,001,,C,2023-04-12_10h33.15.545,blockedTrials,2022.2.5,None,
Surprised.xlsx,Comparez les visages,6,Surprised,M09SU.png,M35SU.png,M09SU.png,1,0,1,1,1,0,4,4,0,,63.60386587500011,63.60386587500011,63.60386587500011,63.60386587500011,67.63865704100022,67.63865704100022,67.63865704100022,67.63865704100022,left,0,3.5929359999997814,,,,001,,C,2023-04-12_10h33.15.545,blockedTrials,2022.2.5,None,
Surprised.xlsx,Comparez les visages,6,Surprised,M28SU.png,M11SU.png,M28SU.png,1,0,1,1,1,0,5,5,1,,68.115280708,68.115280708,68.115280708,68.115280708,72.1062950410003,72.1062950410003,72.1062950410003,72.1062950410003,left,0,1.8316568329998972,,,,001,,C,2023-04-12_10h33.15.545,blockedTrials,2022.2.5,None,
shapes.xlsx,Comparez les formes,4,shapes,circle.png,vertical.png,vertical.png,2,0,2,2,2,0,0,0,5,78.11249916600013,80.58900829100025,80.58900829100025,80.58900829100025,80.58900829100025,84.67030904100034,84.67030904100034,84.67030904100034,84.67030904100034,right,0,1.380239040999868,72.1062950410003,78.11249916600013,80.19606700000008,001,,C,2023-04-12_10h33.15.545,blockedTrials,2022.2.5,None,
shapes.xlsx,Comparez les formes,4,shapes,vertical.png,orizontal.png,vertical.png,1,0,2,2,2,0,1,1,0,,85.09873991600011,85.09873991600011,85.09873991600011,85.09873991600011,89.2003668750001,89.2003668750001,89.2003668750001,89.2003668750001,left,0,1.2806090829997174,,,,001,,C,2023-04-12_10h33.15.545,blockedTrials,2022.2.5,None,
shapes.xlsx,Comparez les formes,4,shapes,orizontal.png,circle.png,orizontal.png,1,0,2,2,2,0,2,2,8,,89.58947179100028,89.58947179100028,89.58947179100028,89.58947179100028,93.69215966600018,93.69215966600018,93.69215966600018,93.69215966600018,left,0,1.9200604160002968,,,,001,,C,2023-04-12_10h33.15.545,blockedTrials,2022.2.5,None,
shapes.xlsx,Comparez les formes,4,shapes,circle.png,orizontal.png,orizontal.png,2,0,2,2,2,0,3,3,7,,94.09870266600024,94.09870266600024,94.09870266600024,94.09870266600024,98.1913043750003,98.1913043750003,98.1913043750003,98.1913043750003,right,0,1.4183365829997001,,,,001,,C,2023-04-12_10h33.15.545,blockedTrials,2022.2.5,None,
shapes.xlsx,Comparez les formes,4,shapes,vertical.png,orizontal.png,orizontal.png,2,0,2,2,2,0,4,4,1,,98.58890450000013,98.58890450000013,98.58890450000013,98.58890450000013,102.67737758299995,102.67737758299995,102.67737758299995,102.67737758299995,None,0,,,,,001,,C,2023-04-12_10h33.15.545,blockedTrials,2022.2.5,None,
shapes.xlsx,Comparez les formes,4,shapes,orizontal.png,vertical.png,vertical.png,2,0,2,2,2,0,5,5,11,,103.09876820800014,103.09876820800014,103.09876820800014,103.09876820800014,107.08818933299995,107.08818933299995,107.08818933299995,107.08818933299995,right,0,1.1694354999997358,,,,001,,C,2023-04-12_10h33.15.545,blockedTrials,2022.2.5,None,
Fearful.xlsx,Comparez les visages,4,Fearful,M14AF.png,M25AF.png,M25AF.png,2,0,3,3,3,0,0,0,0,111.0993155829999,113.56601400000022,113.56601400000022,113.56601400000022,113.56601400000022,117.60059354100008,117.60059354100008,117.60059354100008,117.60059354100008,right,0,2.2677200420000645,107.08818933299995,111.0993155829999,,001,,C,2023-04-12_10h33.15.545,blockedTrials,2022.2.5,None,
Fearful.xlsx,Comparez les visages,4,Fearful,F33AF.png,F16AF.png,F16AF.png,2,0,3,3,3,0,1,1,4,,118.0652082500003,118.0652082500003,118.0652082500003,118.0652082500003,122.09390429100017,122.09390429100017,122.09390429100017,122.09390429100017,right,0,1.679657874999748,,,,001,,C,2023-04-12_10h33.15.545,blockedTrials,2022.2.5,None,
Fearful.xlsx,Comparez les visages,4,Fearful,F14AF.png,F28AF.png,F14AF.png,1,0,3,3,3,0,2,2,5,,122.57242416600025,122.57242416600025,122.57242416600025,122.57242416600025,126.61638295800026,126.61638295800026,126.61638295800026,126.61638295800026,left,0,2.84595187500031,,,,001,,C,2023-04-12_10h33.15.545,blockedTrials,2022.2.5,None,
Fearful.xlsx,Comparez les visages,4,Fearful,F22AF.png,F30AF.png,F30AF.png,2,0,3,3,3,0,3,3,1,,127.07354899999996,127.07354899999996,127.07354899999996,127.07354899999996,131.11672991599994,131.11672991599994,131.11672991599994,131.11672991599994,right,0,1.1776600000000599,,,,001,,C,2023-04-12_10h33.15.545,blockedTrials,2022.2.5,None,
Fearful.xlsx,Comparez les visages,4,Fearful,M19AF.png,M31AF.png,M19AF.png,1,0,3,3,3,0,4,4,3,,131.57011916600027,131.57011916600027,131.57011916600027,131.57011916600027,135.5961131659999,135.5961131659999,135.5961131659999,135.5961131659999,None,0,,,,,001,,C,2023-04-12_10h33.15.545,blockedTrials,2022.2.5,None,
Fearful.xlsx,Comparez les visages,4,Fearful,M11AF.png,M17AF.png,M11AF.png,1,0,3,3,3,0,5,5,2,,136.06998450000015,136.06998450000015,136.06998450000015,136.06998450000015,140.06582333300025,140.06582333300025,140.06582333300025,140.06582333300025,left,0,1.9920602910003709,,,,001,,C,2023-04-12_10h33.15.545,blockedTrials,2022.2.5,None,
shapes.xlsx,Comparez les formes,5,shapes,orizontal.png,vertical.png,vertical.png,2,0,4,4,4,0,0,0,11,144.06411341600028,146.54924854100022,146.54924854100022,146.54924854100022,146.54924854100022,150.6504217080003,150.6504217080003,150.6504217080003,150.6504217080003,None,0,,140.06582333300025,144.06411341600028,146.15994129100022,001,,C,2023-04-12_10h33.15.545,blockedTrials,2022.2.5,None,
shapes.xlsx,Comparez les formes,5,shapes,orizontal.png,vertical.png,orizontal.png,1,0,4,4,4,0,1,1,10,,151.04847587500012,151.04847587500012,151.04847587500012,151.04847587500012,155.1470119160001,155.1470119160001,155.1470119160001,155.1470119160001,left,0,3.326154041000109,,,,001,,C,2023-04-12_10h33.15.545,blockedTrials,2022.2.5,None,
shapes.xlsx,Comparez les formes,5,shapes,circle.png,orizontal.png,circle.png,1,0,4,4,4,0,2,2,6,,155.54916070800004,155.54916070800004,155.54916070800004,155.54916070800004,159.64389504099995,159.64389504099995,159.64389504099995,159.64389504099995,left,0,2.422708124999872,,,,001,,C,2023-04-12_10h33.15.545,blockedTrials,2022.2.5,None,
shapes.xlsx,Comparez les formes,5,shapes,vertical.png,orizontal.png,orizontal.png,2,0,4,4,4,0,3,3,1,,160.04850170800023,160.04850170800023,160.04850170800023,160.04850170800023,164.1340143750001,164.1340143750001,164.1340143750001,164.1340143750001,right,0,1.729078791999882,,,,001,,C,2023-04-12_10h33.15.545,blockedTrials,2022.2.5,None,
shapes.xlsx,Comparez les formes,5,shapes,vertical.png,orizontal.png,vertical.png,1,0,4,4,4,0,4,4,0,,164.5492172910001,164.5492172910001,164.5492172910001,164.5492172910001,168.64551987500022,168.64551987500022,168.64551987500022,168.64551987500022,left,0,0.736680374999878,,,,001,,C,2023-04-12_10h33.15.545,blockedTrials,2022.2.5,None,
shapes.xlsx,Comparez les formes,5,shapes,orizontal.png,circle.png,orizontal.png,1,0,4,4,4,0,5,5,8,,169.04855991599993,169.04855991599993,169.04855991599993,169.04855991599993,173.0384771659999,173.0384771659999,173.0384771659999,173.0384771659999,left,0,1.2986601669997526,,,,001,,C,2023-04-12_10h33.15.545,blockedTrials,2022.2.5,None,
Neutral.xlsx,Comparez les visages,6,Neutral,F06NE.png,F13NE.png,F13NE.png,2,0,5,5,5,0,0,0,0,178.04625925000005,180.5226197909999,180.5226197909999,180.5226197909999,180.5226197909999,184.556887125,184.556887125,184.556887125,184.556887125,right,0,3.2615012909998313,173.0496181660003,178.04625925000005,180.08678716600002,001,,C,2023-04-12_10h33.15.545,blockedTrials,2022.2.5,None,
Neutral.xlsx,Comparez les visages,6,Neutral,F05NE.png,F19NE.png,F19NE.png,2,0,5,5,5,0,1,1,2,,185.03235458299991,185.03235458299991,185.03235458299991,185.03235458299991,189.067173958,189.067173958,189.067173958,189.067173958,right,0,1.572335707999855,,,,001,,C,2023-04-12_10h33.15.545,blockedTrials,2022.2.5,None,
Neutral.xlsx,Comparez les visages,6,Neutral,F07NE.png,F29NE.png,F07NE.png,1,0,5,5,5,0,2,2,5,,189.5325341250002,189.5325341250002,189.5325341250002,189.5325341250002,193.5668303750001,193.5668303750001,193.5668303750001,193.5668303750001,left,0,1.8750425409996296,,,,001,,C,2023-04-12_10h33.15.545,blockedTrials,2022.2.5,None,
Neutral.xlsx,Comparez les visages,6,Neutral,M13NE.png,M07NE.png,M07NE.png,2,0,5,5,5,0,3,3,4,,194.0323812500003,194.0323812500003,194.0323812500003,194.0323812500003,198.06696016599994,198.06696016599994,198.06696016599994,198.06696016599994,right,0,1.5063304590000826,,,,001,,C,2023-04-12_10h33.15.545,blockedTrials,2022.2.5,None,
Neutral.xlsx,Comparez les visages,6,Neutral,M10NE.png,M11NE.png,M10NE.png,1,0,5,5,5,0,4,4,3,,198.5329025829999,198.5329025829999,198.5329025829999,198.5329025829999,202.56804816599993,202.56804816599993,202.56804816599993,202.56804816599993,None,0,,,,,001,,C,2023-04-12_10h33.15.545,blockedTrials,2022.2.5,None,
Neutral.xlsx,Comparez les visages,6,Neutral,M01NE.png,M31NE.png,M01NE.png,1,0,5,5,5,0,5,5,1,,203.03240087500012,203.03240087500012,203.03240087500012,203.03240087500012,207.02168695800015,207.02168695800015,207.02168695800015,207.02168695800015,left,0,0.9214399999998477,,,,001,,C,2023-04-12_10h33.15.545,blockedTrials,2022.2.5,None,
shapes.xlsx,Comparez les formes,9,shapes,circle.png,vertical.png,vertical.png,2,0,6,6,6,0,0,0,5,213.02725629100019,215.50454741599992,215.50454741599992,215.50454741599992,215.50454741599992,219.60039441599997,219.60039441599997,219.60039441599997,219.60039441599997,right,0,1.0147672499995224,207.0326348750002,213.02725629100019,215.11520270799997,001,,C,2023-04-12_10h33.15.545,blockedTrials,2022.2.5,None,
shapes.xlsx,Comparez les formes,9,shapes,orizontal.png,circle.png,orizontal.png,1,0,6,6,6,0,1,1,8,,220.00560770800007,220.00560770800007,220.00560770800007,220.00560770800007,224.1097982910003,224.1097982910003,224.1097982910003,224.1097982910003,None,0,,,,,001,,C,2023-04-12_10h33.15.545,blockedTrials,2022.2.5,None,
shapes.xlsx,Comparez les formes,9,shapes,vertical.png,orizontal.png,orizontal.png,2,0,6,6,6,0,2,2,1,,224.50493037499996,224.50493037499996,224.50493037499996,224.50493037499996,228.5959327500002,228.5959327500002,228.5959327500002,228.5959327500002,right,0,1.507949666000286,,,,001,,C,2023-04-12_10h33.15.545,blockedTrials,2022.2.5,None,
shapes.xlsx,Comparez les formes,9,shapes,circle.png,orizontal.png,orizontal.png,2,0,6,6,6,0,3,3,7,,229.00529816600033,229.00529816600033,229.00529816600033,229.00529816600033,233.0925210830003,233.0925210830003,233.0925210830003,233.0925210830003,right,0,2.6329626660001395,,,,001,,C,2023-04-12_10h33.15.545,blockedTrials,2022.2.5,None,
shapes.xlsx,Comparez les formes,9,shapes,vertical.png,orizontal.png,vertical.png,1,0,6,6,6,0,4,4,0,,233.5049912500001,233.5049912500001,233.5049912500001,233.5049912500001,237.5963998750001,237.5963998750001,237.5963998750001,237.5963998750001,left,0,0.6974325419998877,,,,001,,C,2023-04-12_10h33.15.545,blockedTrials,2022.2.5,None,
shapes.xlsx,Comparez les formes,9,shapes,orizontal.png,circle.png,circle.png,2,0,6,6,6,0,5,5,9,,238.00621083300007,238.00621083300007,238.00621083300007,238.00621083300007,242.00578629100005,242.00578629100005,242.00578629100005,242.00578629100005,right,0,0.9659277920002296,,,,001,,C,2023-04-12_10h33.15.545,blockedTrials,2022.2.5,None,
Angry.xlsx,Comparez les visages,6,Angry,M30AN.png,M09AN.png,M09AN.png,2,0,7,7,7,0,0,0,1,251.01218537499994,253.4992594160001,253.4992594160001,253.4992594160001,253.4992594160001,257.53366416600034,257.53366416600034,257.53366416600034,257.53366416600034,right,0,1.6195985410001867,242.00578629100005,251.01218537499994,253.05233591599995,001,,C,2023-04-12_10h33.15.545,blockedTrials,2022.2.5,None,
Angry.xlsx,Comparez les visages,6,Angry,F21AN.png,F20AN.png,F21AN.png,1,0,7,7,7,0,1,1,2,,257.999217583,257.999217583,257.999217583,257.999217583,262.0334650410002,262.0334650410002,262.0334650410002,262.0334650410002,left,0,2.415430624999999,,,,001,,C,2023-04-12_10h33.15.545,blockedTrials,2022.2.5,None,
Angry.xlsx,Comparez les visages,6,Angry,F22AN.png,F23AN.png,F22AN.png,1,0,7,7,7,0,2,2,3,,262.4992180410002,262.4992180410002,262.4992180410002,262.4992180410002,266.5342222080001,266.5342222080001,266.5342222080001,266.5342222080001,left,0,1.3576177079996796,,,,001,,C,2023-04-12_10h33.15.545,blockedTrials,2022.2.5,None,
Angry.xlsx,Comparez les visages,6,Angry,M17AN.png,M11AN.png,M17AN.png,1,0,7,7,7,0,3,3,4,,266.9997473330002,266.9997473330002,266.9997473330002,266.9997473330002,271.03447325,271.03447325,271.03447325,271.03447325,left,0,1.3360297920000903,,,,001,,C,2023-04-12_10h33.15.545,blockedTrials,2022.2.5,None,
Angry.xlsx,Comparez les visages,6,Angry,F14AN.png,F31AN.png,F31AN.png,2,0,7,7,7,0,4,4,5,,271.4990649160002,271.4990649160002,271.4990649160002,271.4990649160002,275.53468179100014,275.53468179100014,275.53468179100014,275.53468179100014,right,0,1.2917215420000048,,,,001,,C,2023-04-12_10h33.15.545,blockedTrials,2022.2.5,None,
Angry.xlsx,Comparez les visages,6,Angry,M10AN.png,M05AN.png,M05AN.png,2,0,7,7,7,0,5,5,0,,275.99923241600004,275.99923241600004,275.99923241600004,275.99923241600004,279.989363208,279.989363208,279.989363208,279.989363208,right,0,1.4291819160000614,,,,001,,C,2023-04-12_10h33.15.545,blockedTrials,2022.2.5,None,
shapes.xlsx,Comparez les formes,5,shapes,circle.png,vertical.png,circle.png,1,0,8,8,8,0,0,0,4,285.99526120800033,288.48198070800004,288.48198070800004,288.48198070800004,288.48198070800004,292.57502929099996,292.57502929099996,292.57502929099996,292.57502929099996,left,0,0.981217875000084,279.989363208,285.99526120800033,288.07711837500005,001,,C,2023-04-12_10h33.15.545,blockedTrials,2022.2.5,None,
shapes.xlsx,Comparez les formes,5,shapes,orizontal.png,vertical.png,vertical.png,2,0,8,8,8,0,1,1,11,,292.9826756250002,292.9826756250002,292.9826756250002,292.9826756250002,297.06438670800003,297.06438670800003,297.06438670800003,297.06438670800003,right,0,0.7104439580000417,,,,001,,C,2023-04-12_10h33.15.545,blockedTrials,2022.2.5,None,
shapes.xlsx,Comparez les formes,5,shapes,circle.png,vertical.png,vertical.png,2,0,8,8,8,0,2,2,5,,297.4708800830001,297.4708800830001,297.4708800830001,297.4708800830001,301.574717791,301.574717791,301.574717791,301.574717791,right,0,0.9019964159999745,,,,001,,C,2023-04-12_10h33.15.545,blockedTrials,2022.2.5,None,
shapes.xlsx,Comparez les formes,5,shapes,vertical.png,orizontal.png,orizontal.png,2,0,8,8,8,0,3,3,1,,301.9724744580001,301.9724744580001,301.9724744580001,301.9724744580001,306.05643112500024,306.05643112500024,306.05643112500024,306.05643112500024,left,0,1.5982347500000742,,,,001,,C,2023-04-12_10h33.15.545,blockedTrials,2022.2.5,None,
shapes.xlsx,Comparez les formes,5,shapes,vertical.png,circle.png,circle.png,2,0,8,8,8,0,4,4,3,,306.4824865000003,306.4824865000003,306.4824865000003,306.4824865000003,310.5756682910003,310.5756682910003,310.5756682910003,310.5756682910003,left,0,1.3420098339995548,,,,001,,C,2023-04-12_10h33.15.545,blockedTrials,2022.2.5,None,
shapes.xlsx,Comparez les formes,5,shapes,orizontal.png,circle.png,orizontal.png,1,0,8,8,8,0,5,5,8,,310.9825306250002,310.9825306250002,310.9825306250002,310.9825306250002,314.9716554580002,314.9716554580002,314.9716554580002,314.9716554580002,left,0,1.0916875420000451,,,,001,,C,2023-04-12_10h33.15.545,blockedTrials,2022.2.5,None,
shapes.xlsx,Comparez les formes,3,shapes,orizontal.png,circle.png,orizontal.png,1,1,0,9,0,0,0,0,8,319.97784245800017,322.46573304100025,322.46573304100025,322.46573304100025,322.46573304100025,326.5528971250003,326.5528971250003,326.5528971250003,326.5528971250003,left,0,1.6030787090001013,314.98263754100003,319.97784245800017,322.0645352500003,001,,C,2023-04-12_10h33.15.545,blockedTrials,2022.2.5,None,
shapes.xlsx,Comparez les formes,3,shapes,circle.png,vertical.png,vertical.png,2,1,0,9,0,0,1,1,5,,326.9557157910001,326.9557157910001,326.9557157910001,326.9557157910001,331.0488833330003,331.0488833330003,331.0488833330003,331.0488833330003,right,0,0.8803131669999402,,,,001,,C,2023-04-12_10h33.15.545,blockedTrials,2022.2.5,None,
shapes.xlsx,Comparez les formes,3,shapes,circle.png,orizontal.png,orizontal.png,2,1,0,9,0,0,2,2,7,,331.46542516600016,331.46542516600016,331.46542516600016,331.46542516600016,335.55249179099997,335.55249179099997,335.55249179099997,335.55249179099997,right,0,0.7791071250001096,,,,001,,C,2023-04-12_10h33.15.545,blockedTrials,2022.2.5,None,
shapes.xlsx,Comparez les formes,3,shapes,vertical.png,circle.png,circle.png,2,1,0,9,0,0,3,3,3,,335.9559581250003,335.9559581250003,335.9559581250003,335.9559581250003,340.04113837499995,340.04113837499995,340.04113837499995,340.04113837499995,right,0,1.8576510830000643,,,,001,,C,2023-04-12_10h33.15.545,blockedTrials,2022.2.5,None,
shapes.xlsx,Comparez les formes,3,shapes,orizontal.png,circle.png,circle.png,2,1,0,9,0,0,4,4,9,,340.4654187910003,340.4654187910003,340.4654187910003,340.4654187910003,344.5540297499999,344.5540297499999,344.5540297499999,344.5540297499999,right,0,0.9943032089997814,,,,001,,C,2023-04-12_10h33.15.545,blockedTrials,2022.2.5,None,
shapes.xlsx,Comparez les formes,3,shapes,orizontal.png,vertical.png,vertical.png,2,1,0,9,0,0,5,5,11,,344.95513262500003,344.95513262500003,344.95513262500003,344.95513262500003,348.94961208300015,348.94961208300015,348.94961208300015,348.94961208300015,right,0,1.9285085419999177,,,,001,,C,2023-04-12_10h33.15.545,blockedTrials,2022.2.5,None,
Surprised.xlsx,Comparez les visages,6,Surprised,M01SU.png,M16SU.png,M16SU.png,2,1,1,10,1,0,0,0,3,351.94858416600005,354.4359054580002,354.4359054580002,354.4359054580002,354.4359054580002,358.4728442080002,358.4728442080002,358.4728442080002,358.4728442080002,right,0,1.3563834999997653,348.9545181250003,351.94858416600005,353.9874131660001,001,,C,2023-04-12_10h33.15.545,blockedTrials,2022.2.5,None,
Surprised.xlsx,Comparez les visages,6,Surprised,F13SU.png,F24SU.png,F24SU.png,2,1,1,10,1,0,1,1,2,,358.9326936660002,358.9326936660002,358.9326936660002,358.9326936660002,362.966622958,362.966622958,362.966622958,362.966622958,right,0,1.1562196669999594,,,,001,,C,2023-04-12_10h33.15.545,blockedTrials,2022.2.5,None,
Surprised.xlsx,Comparez les visages,6,Surprised,F01SU.png,F35SU.png,F35SU.png,2,1,1,10,1,0,2,2,4,,363.4319215410003,363.4319215410003,363.4319215410003,363.4319215410003,367.46820037500015,367.46820037500015,367.46820037500015,367.46820037500015,right,0,1.1107756249996328,,,,001,,C,2023-04-12_10h33.15.545,blockedTrials,2022.2.5,None,
Surprised.xlsx,Comparez les visages,6,Surprised,M09SU.png,M35SU.png,M09SU.png,1,1,1,10,1,0,3,3,0,,367.9326347910003,367.9326347910003,367.9326347910003,367.9326347910003,371.96739279100007,371.96739279100007,371.96739279100007,371.96739279100007,left,0,1.988821874999985,,,,001,,C,2023-04-12_10h33.15.545,blockedTrials,2022.2.5,None,
Surprised.xlsx,Comparez les visages,6,Surprised,M28SU.png,M11SU.png,M28SU.png,1,1,1,10,1,0,4,4,1,,372.4319022500001,372.4319022500001,372.4319022500001,372.4319022500001,376.4672253330002,376.4672253330002,376.4672253330002,376.4672253330002,left,0,3.0914920420002545,,,,001,,C,2023-04-12_10h33.15.545,blockedTrials,2022.2.5,None,
Surprised.xlsx,Comparez les visages,6,Surprised,F32SU.png,F22SU.png,F32SU.png,1,1,1,10,1,0,5,5,5,,376.9325690410003,376.9325690410003,376.9325690410003,376.9325690410003,380.92174712500014,380.92174712500014,380.92174712500014,380.92174712500014,left,0,1.6046969999999874,,,,001,,C,2023-04-12_10h33.15.545,blockedTrials,2022.2.5,None,
shapes.xlsx,Comparez les formes,4,shapes,vertical.png,circle.png,vertical.png,1,1,2,11,2,0,0,0,2,386.92942258300013,389.4152778330001,389.4152778330001,389.4152778330001,389.4152778330001,393.50699375,393.50699375,393.50699375,393.50699375,left,0,0.9374959579997721,380.9327035409999,386.92942258300013,389.0124456660003,001,,C,2023-04-12_10h33.15.545,blockedTrials,2022.2.5,None,
shapes.xlsx,Comparez les formes,4,shapes,orizontal.png,circle.png,circle.png,2,1,2,11,2,0,1,1,9,,393.9158755410001,393.9158755410001,393.9158755410001,393.9158755410001,398.00544266600014,398.00544266600014,398.00544266600014,398.00544266600014,right,0,1.2043429999996533,,,,001,,C,2023-04-12_10h33.15.545,blockedTrials,2022.2.5,None,
shapes.xlsx,Comparez les formes,4,shapes,orizontal.png,circle.png,orizontal.png,1,1,2,11,2,0,2,2,8,,398.4152054580002,398.4152054580002,398.4152054580002,398.4152054580002,402.50130037500026,402.50130037500026,402.50130037500026,402.50130037500026,left,0,3.1638570000002346,,,,001,,C,2023-04-12_10h33.15.545,blockedTrials,2022.2.5,None,
shapes.xlsx,Comparez les formes,4,shapes,vertical.png,circle.png,circle.png,2,1,2,11,2,0,3,3,3,,402.9162828330002,402.9162828330002,402.9162828330002,402.9162828330002,407.0130809580003,407.0130809580003,407.0130809580003,407.0130809580003,right,0,0.9366603749997466,,,,001,,C,2023-04-12_10h33.15.545,blockedTrials,2022.2.5,None,
shapes.xlsx,Comparez les formes,4,shapes,orizontal.png,vertical.png,orizontal.png,1,1,2,11,2,0,4,4,10,,407.41514299999994,407.41514299999994,407.41514299999994,407.41514299999994,411.50140754100016,411.50140754100016,411.50140754100016,411.50140754100016,left,0,0.8698120840001593,,,,001,,C,2023-04-12_10h33.15.545,blockedTrials,2022.2.5,None,
shapes.xlsx,Comparez les formes,4,shapes,circle.png,vertical.png,circle.png,1,1,2,11,2,0,5,5,4,,411.91583433300025,411.91583433300025,411.91583433300025,411.91583433300025,415.90519237500007,415.90519237500007,415.90519237500007,415.90519237500007,left,0,1.2267469169999003,,,,001,,C,2023-04-12_10h33.15.545,blockedTrials,2022.2.5,None,
Fearful.xlsx,Comparez les visages,4,Fearful,M19AF.png,M31AF.png,M19AF.png,1,1,3,12,3,0,0,0,3,419.9109865410003,422.39853395800014,422.39853395800014,422.39853395800014,422.39853395800014,426.433720708,426.433720708,426.433720708,426.433720708,left,0,1.818002541999931,415.91580816600003,419.9109865410003,421.95241150000015,001,,C,2023-04-12_10h33.15.545,blockedTrials,2022.2.5,None,
Fearful.xlsx,Comparez les visages,4,Fearful,F33AF.png,F16AF.png,F16AF.png,2,1,3,12,3,0,1,1,4,,426.8894761660001,426.8894761660001,426.8894761660001,426.8894761660001,430.9339096660003,430.9339096660003,430.9339096660003,430.9339096660003,right,0,1.3058162919999177,,,,001,,C,2023-04-12_10h33.15.545,blockedTrials,2022.2.5,None,
Fearful.xlsx,Comparez les visages,4,Fearful,M11AF.png,M17AF.png,M11AF.png,1,1,3,12,3,0,2,2,2,,431.39855654100006,431.39855654100006,431.39855654100006,431.39855654100006,435.43305291599995,435.43305291599995,435.43305291599995,435.43305291599995,left,0,2.4229553749999013,,,,001,,C,2023-04-12_10h33.15.545,blockedTrials,2022.2.5,None,
Fearful.xlsx,Comparez les visages,4,Fearful,F22AF.png,F30AF.png,F30AF.png,2,1,3,12,3,0,3,3,1,,435.888664416,435.888664416,435.888664416,435.888664416,439.9216274580001,439.9216274580001,439.9216274580001,439.9216274580001,right,0,1.2853819169997678,,,,001,,C,2023-04-12_10h33.15.545,blockedTrials,2022.2.5,None,
Fearful.xlsx,Comparez les visages,4,Fearful,M14AF.png,M25AF.png,M25AF.png,2,1,3,12,3,0,4,4,0,,440.39846120800007,440.39846120800007,440.39846120800007,440.39846120800007,444.4338206250002,444.4338206250002,444.4338206250002,444.4338206250002,right,0,1.4099121249998916,,,,001,,C,2023-04-12_10h33.15.545,blockedTrials,2022.2.5,None,
Fearful.xlsx,Comparez les visages,4,Fearful,F14AF.png,F28AF.png,F14AF.png,1,1,3,12,3,0,5,5,5,,444.88794250000024,444.88794250000024,444.88794250000024,444.88794250000024,448.8829252910002,448.8829252910002,448.8829252910002,448.8829252910002,left,0,2.849535374999732,,,,001,,C,2023-04-12_10h33.15.545,blockedTrials,2022.2.5,None,
shapes.xlsx,Comparez les formes,5,shapes,circle.png,vertical.png,circle.png,1,1,4,13,4,0,0,0,4,452.88577958300016,455.371345625,455.371345625,455.371345625,455.371345625,459.4669085000003,459.4669085000003,459.4669085000003,459.4669085000003,left,0,0.930463459000066,448.88810912500026,452.88577958300016,454.966876708,001,,C,2023-04-12_10h33.15.545,blockedTrials,2022.2.5,None,
shapes.xlsx,Comparez les formes,5,shapes,vertical.png,orizontal.png,vertical.png,1,1,4,13,4,0,1,1,0,,459.8704541660002,459.8704541660002,459.8704541660002,459.8704541660002,463.956798166,463.956798166,463.956798166,463.956798166,left,0,1.2654430829995817,,,,001,,C,2023-04-12_10h33.15.545,blockedTrials,2022.2.5,None,
shapes.xlsx,Comparez les formes,5,shapes,vertical.png,circle.png,circle.png,2,1,4,13,4,0,2,2,3,,464.3729905830003,464.3729905830003,464.3729905830003,464.3729905830003,468.46867212500024,468.46867212500024,468.46867212500024,468.46867212500024,right,0,0.8137282079999295,,,,001,,C,2023-04-12_10h33.15.545,blockedTrials,2022.2.5,None,
shapes.xlsx,Comparez les formes,5,shapes,circle.png,vertical.png,vertical.png,2,1,4,13,4,0,3,3,5,,468.8708703330001,468.8708703330001,468.8708703330001,468.8708703330001,472.96351441599995,472.96351441599995,472.96351441599995,472.96351441599995,right,0,1.972858958000188,,,,001,,C,2023-04-12_10h33.15.545,blockedTrials,2022.2.5,None,
shapes.xlsx,Comparez les formes,5,shapes,circle.png,orizontal.png,circle.png,1,1,4,13,4,0,4,4,6,,473.372260375,473.372260375,473.372260375,473.372260375,477.47884720800016,477.47884720800016,477.47884720800016,477.47884720800016,left,0,0.7255118749997109,,,,001,,C,2023-04-12_10h33.15.545,blockedTrials,2022.2.5,None,
shapes.xlsx,Comparez les formes,5,shapes,orizontal.png,vertical.png,orizontal.png,1,1,4,13,4,0,5,5,10,,477.8705835830003,477.8705835830003,477.8705835830003,477.8705835830003,481.8658346660002,481.8658346660002,481.8658346660002,481.8658346660002,left,0,1.312908833999927,,,,001,,C,2023-04-12_10h33.15.545,blockedTrials,2022.2.5,None,
Neutral.xlsx,Comparez les visages,6,Neutral,F05NE.png,F19NE.png,F19NE.png,2,1,5,14,5,0,0,0,2,486.86817266599996,489.3493953750001,489.3493953750001,489.3493953750001,489.3493953750001,493.38381508299994,493.38381508299994,493.38381508299994,493.38381508299994,right,0,2.769565124999872,481.8712015000003,486.86817266599996,,001,,C,2023-04-12_10h33.15.545,blockedTrials,2022.2.5,None,
Neutral.xlsx,Comparez les visages,6,Neutral,M13NE.png,M07NE.png,M07NE.png,2,1,5,14,5,0,1,1,4,,493.85469958299996,493.85469958299996,493.85469958299996,493.85469958299996,497.8887269160002,497.8887269160002,497.8887269160002,497.8887269160002,right,0,2.6503663749997486,,,,001,,C,2023-04-12_10h33.15.545,blockedTrials,2022.2.5,None,
Neutral.xlsx,Comparez les visages,6,Neutral,F06NE.png,F13NE.png,F13NE.png,2,1,5,14,5,0,2,2,0,,498.3492269999999,498.3492269999999,498.3492269999999,498.3492269999999,502.3834596250001,502.3834596250001,502.3834596250001,502.3834596250001,right,0,2.4297072500000922,,,,001,,C,2023-04-12_10h33.15.545,blockedTrials,2022.2.5,None,
Neutral.xlsx,Comparez les visages,6,Neutral,F07NE.png,F29NE.png,F07NE.png,1,1,5,14,5,0,3,3,5,,502.85474,502.85474,502.85474,502.85474,506.8895505410003,506.8895505410003,506.8895505410003,506.8895505410003,left,0,1.3896254999997382,,,,001,,C,2023-04-12_10h33.15.545,blockedTrials,2022.2.5,None,
Neutral.xlsx,Comparez les visages,6,Neutral,M01NE.png,M31NE.png,M01NE.png,1,1,5,14,5,0,4,4,1,,507.34910645800005,507.34910645800005,507.34910645800005,507.34910645800005,511.38478683300013,511.38478683300013,511.38478683300013,511.38478683300013,left,0,1.0365974580001875,,,,001,,C,2023-04-12_10h33.15.545,blockedTrials,2022.2.5,None,
Neutral.xlsx,Comparez les visages,6,Neutral,M10NE.png,M11NE.png,M10NE.png,1,1,5,14,5,0,5,5,3,,511.85369879099994,511.85369879099994,511.85369879099994,511.85369879099994,515.849381583,515.849381583,515.849381583,515.849381583,left,0,2.7976677089998248,,,,001,,C,2023-04-12_10h33.15.545,blockedTrials,2022.2.5,None,
shapes.xlsx,Comparez les formes,9,shapes,orizontal.png,circle.png,circle.png,2,1,6,15,6,0,0,0,9,521.8439110830002,524.3223572500003,524.3223572500003,524.3223572500003,524.3223572500003,528.403127416,528.403127416,528.403127416,528.403127416,right,0,0.7683435410001493,515.849381583,521.8439110830002,523.9365560409999,001,,C,2023-04-12_10h33.15.545,blockedTrials,2022.2.5,None,
shapes.xlsx,Comparez les formes,9,shapes,vertical.png,circle.png,circle.png,2,1,6,15,6,0,1,1,3,,528.8203819160001,528.8203819160001,528.8203819160001,528.8203819160001,532.916979416,532.916979416,532.916979416,532.916979416,right,0,2.9652394589995765,,,,001,,C,2023-04-12_10h33.15.545,blockedTrials,2022.2.5,None,
shapes.xlsx,Comparez les formes,9,shapes,orizontal.png,vertical.png,orizontal.png,1,1,6,15,6,0,2,2,10,,533.322156208,533.322156208,533.322156208,533.322156208,537.4120515000002,537.4120515000002,537.4120515000002,537.4120515000002,left,0,0.8718640409999807,,,,001,,C,2023-04-12_10h33.15.545,blockedTrials,2022.2.5,None,
shapes.xlsx,Comparez les formes,9,shapes,orizontal.png,circle.png,orizontal.png,1,1,6,15,6,0,3,3,8,,537.8202548750003,537.8202548750003,537.8202548750003,537.8202548750003,541.9094727500003,541.9094727500003,541.9094727500003,541.9094727500003,left,0,0.9510720410000886,,,,001,,C,2023-04-12_10h33.15.545,blockedTrials,2022.2.5,None,
shapes.xlsx,Comparez les formes,9,shapes,circle.png,vertical.png,circle.png,1,1,6,15,6,0,4,4,4,,542.3225487500001,542.3225487500001,542.3225487500001,542.3225487500001,546.41677525,546.41677525,546.41677525,546.41677525,left,0,3.231922790999988,,,,001,,C,2023-04-12_10h33.15.545,blockedTrials,2022.2.5,None,
shapes.xlsx,Comparez les formes,9,shapes,circle.png,orizontal.png,orizontal.png,2,1,6,15,6,0,5,5,7,,546.8204762500002,546.8204762500002,546.8204762500002,546.8204762500002,550.8157538749999,550.8157538749999,550.8157538749999,550.8157538749999,right,0,1.107872332999932,,,,001,,C,2023-04-12_10h33.15.545,blockedTrials,2022.2.5,None,
Angry.xlsx,Comparez les visages,6,Angry,F22AN.png,F23AN.png,F22AN.png,1,1,7,16,7,0,0,0,3,559.8152165829999,562.3045992079999,562.3045992079999,562.3045992079999,562.3045992079999,566.3399603750001,566.3399603750001,566.3399603750001,566.3399603750001,left,0,2.1744515829998363,550.8206002909999,559.8152165829999,561.8518080830002,001,,C,2023-04-12_10h33.15.545,blockedTrials,2022.2.5,None,
Angry.xlsx,Comparez les visages,6,Angry,F14AN.png,F31AN.png,F31AN.png,2,1,7,16,7,0,1,1,5,,566.8032618330001,566.8032618330001,566.8032618330001,566.8032618330001,570.8390055830002,570.8390055830002,570.8390055830002,570.8390055830002,right,0,2.376713708000125,,,,001,,C,2023-04-12_10h33.15.545,blockedTrials,2022.2.5,None,
Angry.xlsx,Comparez les visages,6,Angry,M10AN.png,M05AN.png,M05AN.png,2,1,7,16,7,0,2,2,0,,571.2993481660003,571.2993481660003,571.2993481660003,571.2993481660003,575.3348175409999,575.3348175409999,575.3348175409999,575.3348175409999,right,0,1.4034021249997295,,,,001,,C,2023-04-12_10h33.15.545,blockedTrials,2022.2.5,None,
Angry.xlsx,Comparez les visages,6,Angry,M17AN.png,M11AN.png,M17AN.png,1,1,7,16,7,0,3,3,4,,575.8031861249999,575.8031861249999,575.8031861249999,575.8031861249999,579.8391098330001,579.8391098330001,579.8391098330001,579.8391098330001,left,0,1.3201080839996848,,,,001,,C,2023-04-12_10h33.15.545,blockedTrials,2022.2.5,None,
Angry.xlsx,Comparez les visages,6,Angry,F21AN.png,F20AN.png,F21AN.png,1,1,7,16,7,0,4,4,2,,580.2998568330001,580.2998568330001,580.2998568330001,580.2998568330001,584.3335962080002,584.3335962080002,584.3335962080002,584.3335962080002,left,0,3.653194624999969,,,,001,,C,2023-04-12_10h33.15.545,blockedTrials,2022.2.5,None,
Angry.xlsx,Comparez les visages,6,Angry,M30AN.png,M09AN.png,M09AN.png,2,1,7,16,7,0,5,5,1,,584.8032243750001,584.8032243750001,584.8032243750001,584.8032243750001,588.7990325410003,588.7990325410003,588.7990325410003,588.7990325410003,right,0,1.2755716249996567,,,,001,,C,2023-04-12_10h33.15.545,blockedTrials,2022.2.5,None,
shapes.xlsx,Comparez les formes,5,shapes,orizontal.png,circle.png,orizontal.png,1,1,8,17,8,0,0,0,8,594.7954970830003,597.272569208,597.272569208,597.272569208,597.272569208,601.3591980829999,601.3591980829999,601.3591980829999,601.3591980829999,left,0,1.228272459000209,588.7990325410003,594.7954970830003,596.888262833,001,,C,2023-04-12_10h33.15.545,blockedTrials,2022.2.5,None,
shapes.xlsx,Comparez les formes,5,shapes,vertical.png,circle.png,circle.png,2,1,8,17,8,0,1,1,3,,601.7817620410003,601.7817620410003,601.7817620410003,601.7817620410003,605.8676321250002,605.8676321250002,605.8676321250002,605.8676321250002,right,0,0.6760524160001751,,,,001,,C,2023-04-12_10h33.15.545,blockedTrials,2022.2.5,None,
shapes.xlsx,Comparez les formes,5,shapes,circle.png,vertical.png,vertical.png,2,1,8,17,8,0,2,2,5,,606.272144541,606.272144541,606.272144541,606.272144541,610.3596863750001,610.3596863750001,610.3596863750001,610.3596863750001,right,0,1.3630672500000856,,,,001,,C,2023-04-12_10h33.15.545,blockedTrials,2022.2.5,None,
shapes.xlsx,Comparez les formes,5,shapes,vertical.png,orizontal.png,vertical.png,1,1,8,17,8,0,3,3,0,,610.7817361660002,610.7817361660002,610.7817361660002,610.7817361660002,614.8752459160003,614.8752459160003,614.8752459160003,614.8752459160003,left,0,1.2853281670002161,,,,001,,C,2023-04-12_10h33.15.545,blockedTrials,2022.2.5,None,
shapes.xlsx,Comparez les formes,5,shapes,circle.png,orizontal.png,orizontal.png,2,1,8,17,8,0,4,4,7,,615.2827569580002,615.2827569580002,615.2827569580002,615.2827569580002,619.3676779160003,619.3676779160003,619.3676779160003,619.3676779160003,right,0,0.8758497499995883,,,,001,,C,2023-04-12_10h33.15.545,blockedTrials,2022.2.5,None,
shapes.xlsx,Comparez les formes,5,shapes,vertical.png,circle.png,vertical.png,1,1,8,17,8,0,5,5,2,,619.7817309580003,619.7817309580003,619.7817309580003,619.7817309580003,623.7713072500003,623.7713072500003,623.7713072500003,623.7713072500003,left,0,0.8557136669999181,,,,001,,C,2023-04-12_10h33.15.545,blockedTrials,2022.2.5,None,
,,,,,,,,,,,,,,,,,,,,,,,,,,,,623.782381708,628.7711524160002,,,,,,,,,
